"trialType","whichPrime","rt","response","trial_index","time_elapsed","word","expectedCategory","expectedCategoryAsDisplayed","leftCategory","rightCategory","correct","question_order"
"prime","degree","96895"," ","2","125808","","","","","","",""
"iat","","2949","j","4","138444","schizophrenia","disorders","disorders","treatment","disorders","true",""
"iat","","2977","j","6","141677","eating disorder","disorders","disorders","treatment","disorders","true",""
"iat","","3752","j","8","145686","depression","disorders","disorders","treatment","disorders","true",""
"iat","","1726","f","10","147669","tutors","treatment","treatment","treatment","disorders","true",""
"iat","","1149","f","12","149072","peer counseling","treatment","treatment","treatment","disorders","true",""
"iat","","2567","f","14","151895","tutors","treatment","treatment","treatment","disorders","true",""
"iat","","1366","j","16","153515","eating disorder","disorders","disorders","treatment","disorders","true",""
"iat","","1527","j","18","155299","post traumatic stress disorder","disorders","disorders","treatment","disorders","true",""
"iat","","898","j","20","156451","bipolar disorder","disorders","disorders","treatment","disorders","true",""
"iat","","954","f","22","157663","resident deans","treatment","treatment","treatment","disorders","true",""
"iat","","2324","f","24","160244","psychiatry","treatment","treatment","treatment","disorders","true",""
"iat","","969","f","26","161468","resident deans","treatment","treatment","treatment","disorders","true",""
"iat","","1049","j","28","162775","bipolar disorder","disorders","disorders","treatment","disorders","true",""
"iat","","2605","f","30","165638","support group","treatment","treatment","treatment","disorders","true",""
"iat","","1096","j","32","166990","schizophrenia","disorders","disorders","treatment","disorders","true",""
"iat","","2062","j","34","169310","obsessive compulsive disorder","disorders","disorders","treatment","disorders","true",""
"iat","","875","f","36","170441","therapy","treatment","treatment","treatment","disorders","true",""
"iat","","1159","j","38","171854","substance abuse disorder","disorders","disorders","treatment","disorders","true",""
"iat","","783","f","40","172894","SHARE counselors","treatment","treatment","treatment","disorders","true",""
"iat","","714","f","42","173862","SHARE counselors","treatment","treatment","treatment","disorders","true",""
"iat","","972","j","44","175092","body dysmorphia","disorders","disorders","treatment","disorders","true",""
"iat","","1321","f","46","176670","peer counseling","treatment","treatment","treatment","disorders","true",""
"iat","","845","f","48","177774","CAMHS","treatment","treatment","treatment","disorders","true",""
"iat","","613","f","50","178643","medication","treatment","treatment","treatment","disorders","true",""
"iat","","1535","f","52","180436","counseling","treatment","treatment","treatment","disorders","true",""
"iat","","1193","j","54","181886","substance abuse disorder","disorders","disorders","treatment","disorders","true",""
"iat","","1469","j","56","183612","depression","disorders","disorders","treatment","disorders","true",""
"iat","","1859","f","58","185725","psychiatry","treatment","treatment","treatment","disorders","true",""
"iat","","1510","f","60","187493","therapy","treatment","treatment","treatment","disorders","true",""
"iat","","926","f","62","188676","medication","treatment","treatment","treatment","disorders","true",""
"iat","","1155","j","64","190089","obsessive compulsive disorder","disorders","disorders","treatment","disorders","true",""
"iat","","862","j","66","191209","post traumatic stress disorder","disorders","disorders","treatment","disorders","true",""
"iat","","864","j","68","192332","body dysmorphia","disorders","disorders","treatment","disorders","true",""
"iat","","1954","j","70","194545","anxiety","disorders","disorders","treatment","disorders","true",""
"iat","","693","f","72","195497","counseling","treatment","treatment","treatment","disorders","true",""
"iat","","940","j","74","196691","personality disorder","disorders","disorders","treatment","disorders","true",""
"iat","","2684","f","77","207955","capable","humanizing","humanizing","humanizing","stigmatizing","true",""
"iat","","1094","j","79","209306","unstable","stigmatizing","stigmatizing","humanizing","stigmatizing","true",""
"iat","","4105","j","81","213667","difficult","humanizing","humanizing","humanizing","stigmatizing","false",""
"iat","","839","f","83","214760","human","humanizing","humanizing","humanizing","stigmatizing","true",""
"iat","","3153","f","85","218169","unpredictable","stigmatizing","stigmatizing","humanizing","stigmatizing","false",""
"iat","","3469","j","87","221891","dangerous","stigmatizing","stigmatizing","humanizing","stigmatizing","true",""
"iat","","1335","f","89","223483","realistic","humanizing","humanizing","humanizing","stigmatizing","true",""
"iat","","1230","j","91","224969","unstable","stigmatizing","stigmatizing","humanizing","stigmatizing","true",""
"iat","","3288","j","93","228513","useless","stigmatizing","stigmatizing","humanizing","stigmatizing","true",""
"iat","","1351","j","95","230120","unpredictable","stigmatizing","stigmatizing","humanizing","stigmatizing","true",""
"iat","","1525","f","97","231899","feeling","humanizing","humanizing","humanizing","stigmatizing","true",""
"iat","","5285","j","99","237441","difficult","humanizing","humanizing","humanizing","stigmatizing","false",""
"iat","","897","f","101","238594","feeling","humanizing","humanizing","humanizing","stigmatizing","true",""
"iat","","1412","j","103","240265","weird","stigmatizing","stigmatizing","humanizing","stigmatizing","true",""
"iat","","863","j","105","241387","weak","stigmatizing","stigmatizing","humanizing","stigmatizing","true",""
"iat","","581","f","107","242223","capable","humanizing","humanizing","humanizing","stigmatizing","true",""
"iat","","839","j","109","243319","insane","stigmatizing","stigmatizing","humanizing","stigmatizing","true",""
"iat","","2087","j","111","245662","fragile","stigmatizing","stigmatizing","humanizing","stigmatizing","true",""
"iat","","721","f","113","246641","sane","humanizing","humanizing","humanizing","stigmatizing","true",""
"iat","","1346","f","115","248242","challenging","humanizing","humanizing","humanizing","stigmatizing","true",""
"iat","","624","f","117","249125","reasonable","humanizing","humanizing","humanizing","stigmatizing","true",""
"iat","","456","f","119","249836","sane","humanizing","humanizing","humanizing","stigmatizing","true",""
"iat","","656","j","121","250751","useless","stigmatizing","stigmatizing","humanizing","stigmatizing","true",""
"iat","","640","f","123","251650","rational","humanizing","humanizing","humanizing","stigmatizing","true",""
"iat","","1086","j","125","252990","dangerous","stigmatizing","stigmatizing","humanizing","stigmatizing","true",""
"iat","","590","f","127","253834","realistic","humanizing","humanizing","humanizing","stigmatizing","true",""
"iat","","715","f","129","254805","rational","humanizing","humanizing","humanizing","stigmatizing","true",""
"iat","","599","j","131","255659","weak","stigmatizing","stigmatizing","humanizing","stigmatizing","true",""
"iat","","856","j","133","256769","psychotic","stigmatizing","stigmatizing","humanizing","stigmatizing","true",""
"iat","","851","f","135","257874","challenging","humanizing","humanizing","humanizing","stigmatizing","true",""
"iat","","690","j","137","258818","fragile","stigmatizing","stigmatizing","humanizing","stigmatizing","true",""
"iat","","1641","j","139","260715","crazy","stigmatizing","stigmatizing","humanizing","stigmatizing","true",""
"iat","","537","f","141","261507","normal","humanizing","humanizing","humanizing","stigmatizing","true",""
"iat","","655","j","143","262415","insane","stigmatizing","stigmatizing","humanizing","stigmatizing","true",""
"iat","","624","f","145","263298","reasonable","humanizing","humanizing","humanizing","stigmatizing","true",""
"iat","","594","j","147","264149","psychotic","stigmatizing","stigmatizing","humanizing","stigmatizing","true",""
"iat","","2513","f","150","281263","eating disorder","disorders","disorders or humanizing","disorders or humanizing","treatment or stigmatizing","true",""
"iat","","3978","j","152","285496","crazy","stigmatizing","treatment or stigmatizing","disorders or humanizing","treatment or stigmatizing","true",""
"iat","","2953","j","154","288707","SHARE counselors","treatment","treatment or stigmatizing","disorders or humanizing","treatment or stigmatizing","true",""
"iat","","2485","j","156","291450","weird","stigmatizing","treatment or stigmatizing","disorders or humanizing","treatment or stigmatizing","true",""
"iat","","1847","j","158","293550","psychiatry","treatment","treatment or stigmatizing","disorders or humanizing","treatment or stigmatizing","true",""
"iat","","964","j","160","294772","support group","treatment","treatment or stigmatizing","disorders or humanizing","treatment or stigmatizing","true",""
"iat","","1299","f","162","296327","normal","humanizing","disorders or humanizing","disorders or humanizing","treatment or stigmatizing","true",""
"iat","","975","f","164","297559","personality disorder","disorders","disorders or humanizing","disorders or humanizing","treatment or stigmatizing","true",""
"iat","","3959","f","166","301778","depression","disorders","disorders or humanizing","disorders or humanizing","treatment or stigmatizing","true",""
"iat","","2629","j","168","304665","psychotic","stigmatizing","treatment or stigmatizing","disorders or humanizing","treatment or stigmatizing","true",""
"iat","","1844","j","170","306767","fragile","stigmatizing","treatment or stigmatizing","disorders or humanizing","treatment or stigmatizing","true",""
"iat","","1253","j","172","308276","difficult","humanizing","disorders or humanizing","disorders or humanizing","treatment or stigmatizing","false",""
"iat","","2921","f","174","311452","feeling","humanizing","disorders or humanizing","disorders or humanizing","treatment or stigmatizing","true",""
"iat","","2211","j","176","313917","resident deans","treatment","treatment or stigmatizing","disorders or humanizing","treatment or stigmatizing","true",""
"iat","","3884","j","178","318058","dangerous","stigmatizing","treatment or stigmatizing","disorders or humanizing","treatment or stigmatizing","true",""
"iat","","1090","f","180","319406","obsessive compulsive disorder","disorders","disorders or humanizing","disorders or humanizing","treatment or stigmatizing","true",""
"iat","","1246","f","182","320909","anxiety","disorders","disorders or humanizing","disorders or humanizing","treatment or stigmatizing","true",""
"iat","","1361","f","184","322526","reasonable","humanizing","disorders or humanizing","disorders or humanizing","treatment or stigmatizing","true",""
"iat","","1201","j","186","323986","medication","treatment","treatment or stigmatizing","disorders or humanizing","treatment or stigmatizing","true",""
"iat","","1880","j","188","326120","weak","stigmatizing","treatment or stigmatizing","disorders or humanizing","treatment or stigmatizing","true",""
"iat","","1248","f","190","327627","sane","humanizing","disorders or humanizing","disorders or humanizing","treatment or stigmatizing","true",""
"iat","","1113","j","192","328997","tutors","treatment","treatment or stigmatizing","disorders or humanizing","treatment or stigmatizing","true",""
"iat","","836","j","194","330091","CAMHS","treatment","treatment or stigmatizing","disorders or humanizing","treatment or stigmatizing","true",""
"iat","","1130","f","196","331479","post traumatic stress disorder","disorders","disorders or humanizing","disorders or humanizing","treatment or stigmatizing","true",""
"iat","","1496","f","198","333231","capable","humanizing","disorders or humanizing","disorders or humanizing","treatment or stigmatizing","true",""
"iat","","1259","f","200","334748","bipolar disorder","disorders","disorders or humanizing","disorders or humanizing","treatment or stigmatizing","true",""
"iat","","7607","j","202","342613","unstable","stigmatizing","treatment or stigmatizing","disorders or humanizing","treatment or stigmatizing","true",""
"iat","","1502","f","204","344373","body dysmorphia","disorders","disorders or humanizing","disorders or humanizing","treatment or stigmatizing","true",""
"iat","","1133","j","206","345760","peer counseling","treatment","treatment or stigmatizing","disorders or humanizing","treatment or stigmatizing","true",""
"iat","","3117","j","208","349134","useless","stigmatizing","treatment or stigmatizing","disorders or humanizing","treatment or stigmatizing","true",""
"iat","","991","f","210","350383","challenging","humanizing","disorders or humanizing","disorders or humanizing","treatment or stigmatizing","true",""
"iat","","3487","f","212","354128","schizophrenia","disorders","disorders or humanizing","disorders or humanizing","treatment or stigmatizing","true",""
"iat","","1253","f","214","355638","human","humanizing","disorders or humanizing","disorders or humanizing","treatment or stigmatizing","true",""
"iat","","920","j","216","356811","counseling","treatment","treatment or stigmatizing","disorders or humanizing","treatment or stigmatizing","true",""
"iat","","878","f","218","357947","realistic","humanizing","disorders or humanizing","disorders or humanizing","treatment or stigmatizing","true",""
"iat","","1514","j","220","359717","unpredictable","stigmatizing","treatment or stigmatizing","disorders or humanizing","treatment or stigmatizing","true",""
"iat","","2152","j","223","371763","unstable","stigmatizing","disorders or stigmatizing","treatment or humanizing","disorders or stigmatizing","true",""
"iat","","1602","j","225","373623","anxiety","disorders","disorders or stigmatizing","treatment or humanizing","disorders or stigmatizing","true",""
"iat","","1183","j","227","375064","schizophrenia","disorders","disorders or stigmatizing","treatment or humanizing","disorders or stigmatizing","true",""
"iat","","881","f","229","376203","reasonable","humanizing","treatment or humanizing","treatment or humanizing","disorders or stigmatizing","true",""
"iat","","835","j","231","377296","dangerous","stigmatizing","disorders or stigmatizing","treatment or humanizing","disorders or stigmatizing","true",""
"iat","","981","f","233","378532","CAMHS","treatment","treatment or humanizing","treatment or humanizing","disorders or stigmatizing","true",""
"iat","","683","f","235","379469","support group","treatment","treatment or humanizing","treatment or humanizing","disorders or stigmatizing","true",""
"iat","","709","f","237","380433","feeling","humanizing","treatment or humanizing","treatment or humanizing","disorders or stigmatizing","true",""
"iat","","614","j","239","381305","body dysmorphia","disorders","disorders or stigmatizing","treatment or humanizing","disorders or stigmatizing","true",""
"iat","","2380","f","241","383943","human","humanizing","treatment or humanizing","treatment or humanizing","disorders or stigmatizing","true",""
"iat","","950","f","243","385149","rational","humanizing","treatment or humanizing","treatment or humanizing","disorders or stigmatizing","true",""
"iat","","976","f","245","386380","challenging","humanizing","treatment or humanizing","treatment or humanizing","disorders or stigmatizing","true",""
"iat","","596","j","247","387232","psychotic","stigmatizing","disorders or stigmatizing","treatment or humanizing","disorders or stigmatizing","true",""
"iat","","921","j","249","388409","personality disorder","disorders","disorders or stigmatizing","treatment or humanizing","disorders or stigmatizing","true",""
"iat","","1934","j","251","390600","post traumatic stress disorder","disorders","disorders or stigmatizing","treatment or humanizing","disorders or stigmatizing","true",""
"iat","","1522","j","253","392380","unpredictable","stigmatizing","disorders or stigmatizing","treatment or humanizing","disorders or stigmatizing","true",""
"iat","","768","j","255","393402","eating disorder","disorders","disorders or stigmatizing","treatment or humanizing","disorders or stigmatizing","true",""
"iat","","860","f","257","394522","psychiatry","treatment","treatment or humanizing","treatment or humanizing","disorders or stigmatizing","true",""
"iat","","851","j","259","395630","useless","stigmatizing","disorders or stigmatizing","treatment or humanizing","disorders or stigmatizing","true",""
"iat","","678","j","261","396564","crazy","stigmatizing","disorders or stigmatizing","treatment or humanizing","disorders or stigmatizing","true",""
"iat","","926","j","263","397748","difficult","humanizing","treatment or humanizing","treatment or humanizing","disorders or stigmatizing","false",""
"iat","","1220","j","265","399226","depression","disorders","disorders or stigmatizing","treatment or humanizing","disorders or stigmatizing","true",""
"iat","","605","f","267","400089","therapy","treatment","treatment or humanizing","treatment or humanizing","disorders or stigmatizing","true",""
"iat","","587","j","269","400931","weak","stigmatizing","disorders or stigmatizing","treatment or humanizing","disorders or stigmatizing","true",""
"iat","","823","f","271","402011","counseling","treatment","treatment or humanizing","treatment or humanizing","disorders or stigmatizing","true",""
"iat","","715","j","273","402984","weird","stigmatizing","disorders or stigmatizing","treatment or humanizing","disorders or stigmatizing","true",""
"iat","","927","f","275","404166","tutors","treatment","treatment or humanizing","treatment or humanizing","disorders or stigmatizing","true",""
"iat","","900","j","277","405322","insane","stigmatizing","disorders or stigmatizing","treatment or humanizing","disorders or stigmatizing","true",""
"iat","","935","f","279","406510","capable","humanizing","treatment or humanizing","treatment or humanizing","disorders or stigmatizing","true",""
"iat","","1200","f","281","407967","peer counseling","treatment","treatment or humanizing","treatment or humanizing","disorders or stigmatizing","true",""
"iat","","696","j","283","408917","bipolar disorder","disorders","disorders or stigmatizing","treatment or humanizing","disorders or stigmatizing","true",""
"iat","","1343","f","285","410519","realistic","humanizing","treatment or humanizing","treatment or humanizing","disorders or stigmatizing","true",""
"iat","","656","f","287","411432","resident deans","treatment","treatment or humanizing","treatment or humanizing","disorders or stigmatizing","true",""
"iat","","1480","f","289","413171","sane","humanizing","treatment or humanizing","treatment or humanizing","disorders or stigmatizing","true",""
"iat","","1068","j","291","414497","fragile","stigmatizing","disorders or stigmatizing","treatment or humanizing","disorders or stigmatizing","true",""
"iat","","1919","f","293","416672","medication","treatment","treatment or humanizing","treatment or humanizing","disorders or stigmatizing","true",""
"questionnaire","","41086","{""Q9"":3,""Q7"":3,""Q4"":2,""Q6"":4,""Q0"":2,""Q2"":3,""Q8"":3,""Q1"":3,""Q3"":0,""Q5"":1}","295","458014","","","","","","","[9,7,4,6,0,2,8,1,3,5]"
