"trialType","whichPrime","rt","response","trial_index","time_elapsed","word","expectedCategory","expectedCategoryAsDisplayed","leftCategory","rightCategory","correct","question_order"
"prime","harvard","96842"," ","2","126337","","","","","","",""
"iat","","2025","j","4","148933","unpredictable","stigmatizing","stigmatizing","humanizing","stigmatizing","true",""
"iat","","753","j","6","149945","dangerous","stigmatizing","stigmatizing","humanizing","stigmatizing","true",""
"iat","","1559","j","8","151760","fragile","stigmatizing","stigmatizing","humanizing","stigmatizing","true",""
"iat","","1631","j","10","153659","challenging","humanizing","humanizing","humanizing","stigmatizing","false",""
"iat","","2374","j","12","156301","unstable","stigmatizing","stigmatizing","humanizing","stigmatizing","true",""
"iat","","976","f","14","157545","capable","humanizing","humanizing","humanizing","stigmatizing","true",""
"iat","","734","j","16","158534","useless","stigmatizing","stigmatizing","humanizing","stigmatizing","true",""
"iat","","1380","j","18","160173","difficult","humanizing","humanizing","humanizing","stigmatizing","false",""
"iat","","742","f","20","161173","weird","stigmatizing","stigmatizing","humanizing","stigmatizing","false",""
"iat","","1286","f","22","162728","realistic","humanizing","humanizing","humanizing","stigmatizing","true",""
"iat","","625","j","24","163610","dangerous","stigmatizing","stigmatizing","humanizing","stigmatizing","true",""
"iat","","972","j","26","164839","psychotic","stigmatizing","stigmatizing","humanizing","stigmatizing","true",""
"iat","","3546","f","28","168648","normal","humanizing","humanizing","humanizing","stigmatizing","true",""
"iat","","3416","f","30","172325","reasonable","humanizing","humanizing","humanizing","stigmatizing","true",""
"iat","","771","j","32","173362","psychotic","stigmatizing","stigmatizing","humanizing","stigmatizing","true",""
"iat","","1987","j","34","175617","sane","humanizing","humanizing","humanizing","stigmatizing","false",""
"iat","","3204","j","36","179075","rational","humanizing","humanizing","humanizing","stigmatizing","false",""
"iat","","1099","f","38","180432","capable","humanizing","humanizing","humanizing","stigmatizing","true",""
"iat","","5430","f","40","186126","challenging","humanizing","humanizing","humanizing","stigmatizing","true",""
"iat","","779","j","42","187170","useless","stigmatizing","stigmatizing","humanizing","stigmatizing","true",""
"iat","","569","j","44","187994","weak","stigmatizing","stigmatizing","humanizing","stigmatizing","true",""
"iat","","1459","f","46","189709","feeling","humanizing","humanizing","humanizing","stigmatizing","true",""
"iat","","794","j","48","190761","normal","humanizing","humanizing","humanizing","stigmatizing","false",""
"iat","","765","j","50","191792","unstable","stigmatizing","stigmatizing","humanizing","stigmatizing","true",""
"iat","","1040","f","52","193101","feeling","humanizing","humanizing","humanizing","stigmatizing","true",""
"iat","","1119","j","54","194486","fragile","stigmatizing","stigmatizing","humanizing","stigmatizing","true",""
"iat","","1087","j","56","195840","sane","humanizing","humanizing","humanizing","stigmatizing","false",""
"iat","","868","j","58","196969","insane","stigmatizing","stigmatizing","humanizing","stigmatizing","true",""
"iat","","4014","f","60","201238","realistic","humanizing","humanizing","humanizing","stigmatizing","true",""
"iat","","895","j","62","202388","insane","stigmatizing","stigmatizing","humanizing","stigmatizing","true",""
"iat","","1166","f","64","203817","human","humanizing","humanizing","humanizing","stigmatizing","true",""
"iat","","755","j","66","204831","weird","stigmatizing","stigmatizing","humanizing","stigmatizing","true",""
"iat","","631","j","68","205727","crazy","stigmatizing","stigmatizing","humanizing","stigmatizing","true",""
"iat","","391","j","70","206385","crazy","stigmatizing","stigmatizing","humanizing","stigmatizing","true",""
"iat","","2808","f","72","209454","reasonable","humanizing","humanizing","humanizing","stigmatizing","true",""
"iat","","1556","f","74","211273","human","humanizing","humanizing","humanizing","stigmatizing","true",""
"iat","","1651","f","77","221647","personality disorder","disorders","disorders","disorders","treatment","true",""
"iat","","896","f","79","222808","post traumatic stress disorder","disorders","disorders","disorders","treatment","true",""
"iat","","764","f","81","223836","eating disorder","disorders","disorders","disorders","treatment","true",""
"iat","","776","j","83","224873","counseling","treatment","treatment","disorders","treatment","true",""
"iat","","1098","j","85","226234","resident deans","treatment","treatment","disorders","treatment","true",""
"iat","","782","j","87","227268","tutors","treatment","treatment","disorders","treatment","true",""
"iat","","1998","j","89","229535","peer counseling","treatment","treatment","disorders","treatment","true",""
"iat","","1353","f","91","231152","anxiety","disorders","disorders","disorders","treatment","true",""
"iat","","503","f","93","231911","schizophrenia","disorders","disorders","disorders","treatment","true",""
"iat","","527","f","95","232706","anxiety","disorders","disorders","disorders","treatment","true",""
"iat","","763","f","97","233735","obsessive compulsive disorder","disorders","disorders","disorders","treatment","true",""
"iat","","773","j","99","234770","peer counseling","treatment","treatment","disorders","treatment","true",""
"iat","","1051","j","101","236087","resident deans","treatment","treatment","disorders","treatment","true",""
"iat","","702","j","103","237055","SHARE counselors","treatment","treatment","disorders","treatment","true",""
"iat","","6323","f","105","243631","","","disorders","disorders","treatment","true",""
"iat","","1755","f","107","245642","bipolar disorder","disorders","disorders","disorders","treatment","true",""
"iat","","963","j","109","246864","CAMHS","treatment","treatment","disorders","treatment","true",""
"iat","","1526","f","111","248658","personality disorder","disorders","disorders","disorders","treatment","true",""
"iat","","1329","f","113","250242","depression","disorders","disorders","disorders","treatment","true",""
"iat","","627","j","115","251135","counseling","treatment","treatment","disorders","treatment","true",""
"iat","","909","j","117","252305","psychiatry","treatment","treatment","disorders","treatment","true",""
"iat","","690","j","119","253251","SHARE counselors","treatment","treatment","disorders","treatment","true",""
"iat","","1496","f","121","255009","body dysmorphia","disorders","disorders","disorders","treatment","true",""
"iat","","559","f","123","255824","depression","disorders","disorders","disorders","treatment","true",""
"iat","","731","j","125","256821","support group","treatment","treatment","disorders","treatment","true",""
"iat","","703","j","127","257791","tutors","treatment","treatment","disorders","treatment","true",""
"iat","","1095","f","129","259140","body dysmorphia","disorders","disorders","disorders","treatment","true",""
"iat","","978","j","131","260376","support group","treatment","treatment","disorders","treatment","true",""
"iat","","819","f","133","261454","obsessive compulsive disorder","disorders","disorders","disorders","treatment","true",""
"iat","","1051","f","135","262766","substance abuse disorder","disorders","disorders","disorders","treatment","true",""
"iat","","841","j","137","263876","therapy","treatment","treatment","disorders","treatment","true",""
"iat","","2855","j","139","266988","","","disorders","disorders","treatment","false",""
"iat","","3082","j","141","270328","psychiatry","treatment","treatment","disorders","treatment","true",""
"iat","","761","j","143","271347","medication","treatment","treatment","disorders","treatment","true",""
"iat","","408","j","145","272017","medication","treatment","treatment","disorders","treatment","true",""
"iat","","879","f","147","273152","bipolar disorder","disorders","disorders","disorders","treatment","true",""
"iat","","5855","j","150","282773","rational","humanizing","treatment or humanizing","disorders or stigmatizing","treatment or humanizing","true",""
"iat","","1450","j","152","284480","feeling","humanizing","treatment or humanizing","disorders or stigmatizing","treatment or humanizing","true",""
"iat","","1179","f","154","285924","unstable","stigmatizing","disorders or stigmatizing","disorders or stigmatizing","treatment or humanizing","true",""
"iat","","1958","f","156","288151","anxiety","disorders","disorders or stigmatizing","disorders or stigmatizing","treatment or humanizing","true",""
"iat","","1100","j","158","289511","CAMHS","treatment","treatment or humanizing","disorders or stigmatizing","treatment or humanizing","true",""
"iat","","1355","f","160","291120","normal","humanizing","treatment or humanizing","disorders or stigmatizing","treatment or humanizing","false",""
"iat","","2340","j","162","293725","medication","treatment","treatment or humanizing","disorders or stigmatizing","treatment or humanizing","true",""
"iat","","1212","j","164","295191","resident deans","treatment","treatment or humanizing","disorders or stigmatizing","treatment or humanizing","true",""
"iat","","977","f","166","296427","crazy","stigmatizing","disorders or stigmatizing","disorders or stigmatizing","treatment or humanizing","true",""
"iat","","4632","f","168","301314","depression","disorders","disorders or stigmatizing","disorders or stigmatizing","treatment or humanizing","true",""
"iat","","4606","j","170","306189","challenging","humanizing","treatment or humanizing","disorders or stigmatizing","treatment or humanizing","true",""
"iat","","1438","f","172","307894","weird","stigmatizing","disorders or stigmatizing","disorders or stigmatizing","treatment or humanizing","true",""
"iat","","1052","j","174","309203","psychiatry","treatment","treatment or humanizing","disorders or stigmatizing","treatment or humanizing","true",""
"iat","","1582","f","176","311043","personality disorder","disorders","disorders or stigmatizing","disorders or stigmatizing","treatment or humanizing","true",""
"iat","","1159","j","178","312464","peer counseling","treatment","treatment or humanizing","disorders or stigmatizing","treatment or humanizing","true",""
"iat","","2884","j","180","315612","human","humanizing","treatment or humanizing","disorders or stigmatizing","treatment or humanizing","true",""
"iat","","941","j","182","316808","reasonable","humanizing","treatment or humanizing","disorders or stigmatizing","treatment or humanizing","true",""
"iat","","1112","f","184","318176","body dysmorphia","disorders","disorders or stigmatizing","disorders or stigmatizing","treatment or humanizing","true",""
"iat","","1250","f","186","319684","obsessive compulsive disorder","disorders","disorders or stigmatizing","disorders or stigmatizing","treatment or humanizing","true",""
"iat","","1687","f","188","321632","psychotic","stigmatizing","disorders or stigmatizing","disorders or stigmatizing","treatment or humanizing","true",""
"iat","","1457","j","190","323351","counseling","treatment","treatment or humanizing","disorders or stigmatizing","treatment or humanizing","true",""
"iat","","1028","f","192","324636","post traumatic stress disorder","disorders","disorders or stigmatizing","disorders or stigmatizing","treatment or humanizing","true",""
"iat","","2147","j","194","327041","capable","humanizing","treatment or humanizing","disorders or stigmatizing","treatment or humanizing","true",""
"iat","","992","j","196","328294","SHARE counselors","treatment","treatment or humanizing","disorders or stigmatizing","treatment or humanizing","true",""
"iat","","2279","f","198","330827","useless","stigmatizing","disorders or stigmatizing","disorders or stigmatizing","treatment or humanizing","true",""
"iat","","689","f","200","331777","weak","stigmatizing","disorders or stigmatizing","disorders or stigmatizing","treatment or humanizing","true",""
"iat","","992","f","202","333026","substance abuse disorder","disorders","disorders or stigmatizing","disorders or stigmatizing","treatment or humanizing","true",""
"iat","","1164","j","204","334455","tutors","treatment","treatment or humanizing","disorders or stigmatizing","treatment or humanizing","true",""
"iat","","816","f","206","335532","sane","humanizing","treatment or humanizing","disorders or stigmatizing","treatment or humanizing","false",""
"iat","","1505","f","208","337295","fragile","stigmatizing","disorders or stigmatizing","disorders or stigmatizing","treatment or humanizing","true",""
"iat","","5054","f","210","342603","bipolar disorder","disorders","disorders or stigmatizing","disorders or stigmatizing","treatment or humanizing","true",""
"iat","","726","j","212","343582","therapy","treatment","treatment or humanizing","disorders or stigmatizing","treatment or humanizing","true",""
"iat","","1349","f","214","345198","insane","stigmatizing","disorders or stigmatizing","disorders or stigmatizing","treatment or humanizing","true",""
"iat","","1784","j","216","347237","difficult","humanizing","treatment or humanizing","disorders or stigmatizing","treatment or humanizing","true",""
"iat","","1150","f","218","348646","dangerous","stigmatizing","disorders or stigmatizing","disorders or stigmatizing","treatment or humanizing","true",""
"iat","","1052","f","220","349961","schizophrenia","disorders","disorders or stigmatizing","disorders or stigmatizing","treatment or humanizing","true",""
"iat","","1775","f","223","353796","useless","stigmatizing","treatment or stigmatizing","treatment or stigmatizing","disorders or humanizing","true",""
"iat","","1004","f","225","355064","unpredictable","stigmatizing","treatment or stigmatizing","treatment or stigmatizing","disorders or humanizing","true",""
"iat","","2076","f","227","357402","fragile","stigmatizing","treatment or stigmatizing","treatment or stigmatizing","disorders or humanizing","true",""
"iat","","1215","f","229","358880","medication","treatment","treatment or stigmatizing","treatment or stigmatizing","disorders or humanizing","true",""
"iat","","2041","f","231","361188","therapy","treatment","treatment or stigmatizing","treatment or stigmatizing","disorders or humanizing","true",""
"iat","","1043","j","233","362495","body dysmorphia","disorders","disorders or humanizing","treatment or stigmatizing","disorders or humanizing","true",""
"iat","","1110","f","235","363868","rational","humanizing","disorders or humanizing","treatment or stigmatizing","disorders or humanizing","false",""
"iat","","715","f","237","364848","insane","stigmatizing","treatment or stigmatizing","treatment or stigmatizing","disorders or humanizing","true",""
"iat","","1236","f","239","366338","eating disorder","disorders","disorders or humanizing","treatment or stigmatizing","disorders or humanizing","false",""
"iat","","1107","f","241","367705","weird","stigmatizing","treatment or stigmatizing","treatment or stigmatizing","disorders or humanizing","true",""
"iat","","1461","j","243","369431","substance abuse disorder","disorders","disorders or humanizing","treatment or stigmatizing","disorders or humanizing","true",""
"iat","","1484","f","245","371177","psychotic","stigmatizing","treatment or stigmatizing","treatment or stigmatizing","disorders or humanizing","true",""
"iat","","1173","f","247","372603","psychiatry","treatment","treatment or stigmatizing","treatment or stigmatizing","disorders or humanizing","true",""
"iat","","1703","j","249","374569","difficult","humanizing","disorders or humanizing","treatment or stigmatizing","disorders or humanizing","true",""
"iat","","766","j","251","375593","human","humanizing","disorders or humanizing","treatment or stigmatizing","disorders or humanizing","true",""
"iat","","1070","f","253","376927","sane","humanizing","disorders or humanizing","treatment or stigmatizing","disorders or humanizing","false",""
"iat","","1941","f","255","379134","support group","treatment","treatment or stigmatizing","treatment or stigmatizing","disorders or humanizing","true",""
"iat","","1145","j","257","380532","realistic","humanizing","disorders or humanizing","treatment or stigmatizing","disorders or humanizing","true",""
"iat","","786","j","259","381576","feeling","humanizing","disorders or humanizing","treatment or stigmatizing","disorders or humanizing","true",""
"iat","","1175","j","261","383006","schizophrenia","disorders","disorders or humanizing","treatment or stigmatizing","disorders or humanizing","true",""
"iat","","1199","f","263","384464","CAMHS","treatment","treatment or stigmatizing","treatment or stigmatizing","disorders or humanizing","true",""
"iat","","2319","j","265","387037","anxiety","disorders","disorders or humanizing","treatment or stigmatizing","disorders or humanizing","true",""
"iat","","1364","f","267","388664","SHARE counselors","treatment","treatment or stigmatizing","treatment or stigmatizing","disorders or humanizing","true",""
"iat","","836","f","269","389753","tutors","treatment","treatment or stigmatizing","treatment or stigmatizing","disorders or humanizing","true",""
"iat","","2360","j","271","392367","capable","humanizing","disorders or humanizing","treatment or stigmatizing","disorders or humanizing","true",""
"iat","","963","j","273","393597","personality disorder","disorders","disorders or humanizing","treatment or stigmatizing","disorders or humanizing","true",""
"iat","","659","j","275","394517","depression","disorders","disorders or humanizing","treatment or stigmatizing","disorders or humanizing","true",""
"iat","","1288","f","277","396062","unstable","stigmatizing","treatment or stigmatizing","treatment or stigmatizing","disorders or humanizing","true",""
"iat","","1584","j","279","397911","challenging","humanizing","disorders or humanizing","treatment or stigmatizing","disorders or humanizing","true",""
"iat","","1722","f","281","399896","counseling","treatment","treatment or stigmatizing","treatment or stigmatizing","disorders or humanizing","true",""
"iat","","1108","f","283","401272","dangerous","stigmatizing","treatment or stigmatizing","treatment or stigmatizing","disorders or humanizing","true",""
"iat","","1811","j","285","403344","reasonable","humanizing","disorders or humanizing","treatment or stigmatizing","disorders or humanizing","true",""
"iat","","1191","f","287","404802","resident deans","treatment","treatment or stigmatizing","treatment or stigmatizing","disorders or humanizing","true",""
"iat","","998","f","289","406064","crazy","stigmatizing","treatment or stigmatizing","treatment or stigmatizing","disorders or humanizing","true",""
"iat","","1533","j","291","407854","post traumatic stress disorder","disorders","disorders or humanizing","treatment or stigmatizing","disorders or humanizing","true",""
"iat","","1001","j","293","409113","obsessive compulsive disorder","disorders","disorders or humanizing","treatment or stigmatizing","disorders or humanizing","true",""
"questionnaire","","73925","{""Q6"":4,""Q8"":4,""Q0"":1,""Q1"":2,""Q5"":4,""Q7"":4,""Q4"":1,""Q9"":4,""Q2"":1,""Q3"":2}","295","483300","","","","","","","[6,8,0,1,5,7,4,9,2,3]"
