"trialType","whichPrime","rt","response","trial_index","time_elapsed","word","expectedCategory","expectedCategoryAsDisplayed","leftCategory","rightCategory","correct","question_order"
"prime","degree","132206"," ","2","140631","","","","","","",""
"iat","","1760","f","4","153476","obsessive compulsive disorder","disorders","disorders","disorders","treatment","true",""
"iat","","770","j","6","154501","therapy","treatment","treatment","disorders","treatment","true",""
"iat","","1148","f","8","155905","body dysmorphia","disorders","disorders","disorders","treatment","true",""
"iat","","757","f","10","156917","personality disorder","disorders","disorders","disorders","treatment","true",""
"iat","","1735","j","12","158907","resident deans","treatment","treatment","disorders","treatment","true",""
"iat","","970","f","14","160130","schizophrenia","disorders","disorders","disorders","treatment","true",""
"iat","","886","f","16","161270","bipolar disorder","disorders","disorders","disorders","treatment","true",""
"iat","","1206","f","18","162730","substance abuse disorder","disorders","disorders","disorders","treatment","true",""
"iat","","866","j","20","163851","peer counseling","treatment","treatment","disorders","treatment","true",""
"iat","","644","j","22","164750","peer counseling","treatment","treatment","disorders","treatment","true",""
"iat","","1464","j","24","166468","CAMHS","treatment","treatment","disorders","treatment","true",""
"iat","","1487","f","26","168209","depression","disorders","disorders","disorders","treatment","true",""
"iat","","735","j","28","169198","therapy","treatment","treatment","disorders","treatment","true",""
"iat","","688","j","30","170141","psychiatry","treatment","treatment","disorders","treatment","true",""
"iat","","748","f","32","171143","schizophrenia","disorders","disorders","disorders","treatment","true",""
"iat","","593","j","34","171990","counseling","treatment","treatment","disorders","treatment","true",""
"iat","","673","j","36","172919","CAMHS","treatment","treatment","disorders","treatment","true",""
"iat","","590","j","38","173763","counseling","treatment","treatment","disorders","treatment","true",""
"iat","","754","j","40","174772","tutors","treatment","treatment","disorders","treatment","true",""
"iat","","1184","f","42","176210","psychiatry","treatment","treatment","disorders","treatment","false",""
"iat","","919","j","44","177384","SHARE counselors","treatment","treatment","disorders","treatment","true",""
"iat","","1534","f","46","179172","personality disorder","disorders","disorders","disorders","treatment","true",""
"iat","","772","j","48","180198","support group","treatment","treatment","disorders","treatment","true",""
"iat","","782","f","50","181234","eating disorder","disorders","disorders","disorders","treatment","true",""
"iat","","984","j","52","182472","","","disorders","disorders","treatment","false",""
"iat","","1490","f","54","184217","post traumatic stress disorder","disorders","disorders","disorders","treatment","true",""
"iat","","1433","f","56","185904","body dysmorphia","disorders","disorders","disorders","treatment","true",""
"iat","","1708","j","58","187866","medication","treatment","treatment","disorders","treatment","true",""
"iat","","740","f","60","188859","bipolar disorder","disorders","disorders","disorders","treatment","true",""
"iat","","651","j","62","189763","","","disorders","disorders","treatment","false",""
"iat","","867","f","64","190885","anxiety","disorders","disorders","disorders","treatment","true",""
"iat","","1374","j","66","192512","support group","treatment","treatment","disorders","treatment","true",""
"iat","","938","j","68","193704","resident deans","treatment","treatment","disorders","treatment","true",""
"iat","","1172","f","70","195130","eating disorder","disorders","disorders","disorders","treatment","true",""
"iat","","938","f","72","196322","obsessive compulsive disorder","disorders","disorders","disorders","treatment","true",""
"iat","","748","j","74","197324","tutors","treatment","treatment","disorders","treatment","true",""
"iat","","4659","f","77","209110","fragile","stigmatizing","stigmatizing","humanizing","stigmatizing","false",""
"iat","","1611","f","79","210975","normal","humanizing","humanizing","humanizing","stigmatizing","true",""
"iat","","2457","f","81","213687","rational","humanizing","humanizing","humanizing","stigmatizing","true",""
"iat","","2167","j","83","216110","weird","stigmatizing","stigmatizing","humanizing","stigmatizing","true",""
"iat","","1221","j","85","217585","weak","stigmatizing","stigmatizing","humanizing","stigmatizing","true",""
"iat","","3001","f","87","220840","challenging","humanizing","humanizing","humanizing","stigmatizing","true",""
"iat","","1913","j","89","223007","psychotic","stigmatizing","stigmatizing","humanizing","stigmatizing","true",""
"iat","","1313","f","91","224574","difficult","humanizing","humanizing","humanizing","stigmatizing","true",""
"iat","","1281","f","93","226109","capable","humanizing","humanizing","humanizing","stigmatizing","true",""
"iat","","1017","f","95","227380","weak","stigmatizing","stigmatizing","humanizing","stigmatizing","false",""
"iat","","2171","f","97","229805","useless","stigmatizing","stigmatizing","humanizing","stigmatizing","false",""
"iat","","1601","j","99","231660","crazy","stigmatizing","stigmatizing","humanizing","stigmatizing","true",""
"iat","","1014","j","101","232928","insane","stigmatizing","stigmatizing","humanizing","stigmatizing","true",""
"iat","","1847","f","103","235028","weird","stigmatizing","stigmatizing","humanizing","stigmatizing","false",""
"iat","","1484","j","105","236768","unstable","stigmatizing","stigmatizing","humanizing","stigmatizing","true",""
"iat","","1310","j","107","238332","unpredictable","stigmatizing","stigmatizing","humanizing","stigmatizing","true",""
"iat","","1627","f","109","240213","sane","humanizing","humanizing","humanizing","stigmatizing","true",""
"iat","","1073","f","111","241540","capable","humanizing","humanizing","humanizing","stigmatizing","true",""
"iat","","1288","f","113","243084","challenging","humanizing","humanizing","humanizing","stigmatizing","true",""
"iat","","1604","f","115","244943","sane","humanizing","humanizing","humanizing","stigmatizing","true",""
"iat","","742","f","117","245939","human","humanizing","humanizing","humanizing","stigmatizing","true",""
"iat","","708","j","119","246901","psychotic","stigmatizing","stigmatizing","humanizing","stigmatizing","true",""
"iat","","2683","j","121","249839","useless","stigmatizing","stigmatizing","humanizing","stigmatizing","true",""
"iat","","767","j","123","250860","dangerous","stigmatizing","stigmatizing","humanizing","stigmatizing","true",""
"iat","","882","f","125","251997","human","humanizing","humanizing","humanizing","stigmatizing","true",""
"iat","","829","j","127","253080","crazy","stigmatizing","stigmatizing","humanizing","stigmatizing","true",""
"iat","","798","f","129","254133","rational","humanizing","humanizing","humanizing","stigmatizing","true",""
"iat","","941","f","131","255329","feeling","humanizing","humanizing","humanizing","stigmatizing","true",""
"iat","","1063","f","133","256648","reasonable","humanizing","humanizing","humanizing","stigmatizing","true",""
"iat","","815","j","135","257716","dangerous","stigmatizing","stigmatizing","humanizing","stigmatizing","true",""
"iat","","804","f","137","258775","realistic","humanizing","humanizing","humanizing","stigmatizing","true",""
"iat","","2452","f","139","261481","difficult","humanizing","humanizing","humanizing","stigmatizing","true",""
"iat","","866","j","141","262601","insane","stigmatizing","stigmatizing","humanizing","stigmatizing","true",""
"iat","","2171","f","143","265026","reasonable","humanizing","humanizing","humanizing","stigmatizing","true",""
"iat","","1428","f","145","266708","fragile","stigmatizing","stigmatizing","humanizing","stigmatizing","false",""
"iat","","1256","f","147","268218","feeling","humanizing","humanizing","humanizing","stigmatizing","true",""
"iat","","3084","f","150","291115","dangerous","stigmatizing","treatment or stigmatizing","treatment or stigmatizing","disorders or humanizing","true",""
"iat","","866","f","152","292235","unstable","stigmatizing","treatment or stigmatizing","treatment or stigmatizing","disorders or humanizing","true",""
"iat","","1457","j","154","293946","schizophrenia","disorders","disorders or humanizing","treatment or stigmatizing","disorders or humanizing","true",""
"iat","","3968","j","156","298169","feeling","humanizing","disorders or humanizing","treatment or stigmatizing","disorders or humanizing","true",""
"iat","","1892","j","158","300315","psychiatry","treatment","treatment or stigmatizing","treatment or stigmatizing","disorders or humanizing","false",""
"iat","","1044","f","160","301613","CAMHS","treatment","treatment or stigmatizing","treatment or stigmatizing","disorders or humanizing","true",""
"iat","","2015","f","162","303882","difficult","humanizing","disorders or humanizing","treatment or stigmatizing","disorders or humanizing","false",""
"iat","","1415","j","164","305552","psychotic","stigmatizing","treatment or stigmatizing","treatment or stigmatizing","disorders or humanizing","false",""
"iat","","1018","j","166","306825","post traumatic stress disorder","disorders","disorders or humanizing","treatment or stigmatizing","disorders or humanizing","true",""
"iat","","1384","f","168","308462","peer counseling","treatment","treatment or stigmatizing","treatment or stigmatizing","disorders or humanizing","true",""
"iat","","1395","j","170","310111","normal","humanizing","disorders or humanizing","treatment or stigmatizing","disorders or humanizing","true",""
"iat","","2571","f","172","312934","support group","treatment","treatment or stigmatizing","treatment or stigmatizing","disorders or humanizing","true",""
"iat","","1889","f","174","315079","weird","stigmatizing","treatment or stigmatizing","treatment or stigmatizing","disorders or humanizing","true",""
"iat","","3695","f","176","319029","challenging","humanizing","disorders or humanizing","treatment or stigmatizing","disorders or humanizing","false",""
"iat","","1572","j","178","320855","human","humanizing","disorders or humanizing","treatment or stigmatizing","disorders or humanizing","true",""
"iat","","1405","f","180","322513","tutors","treatment","treatment or stigmatizing","treatment or stigmatizing","disorders or humanizing","true",""
"iat","","1365","f","182","324132","substance abuse disorder","disorders","disorders or humanizing","treatment or stigmatizing","disorders or humanizing","false",""
"iat","","1187","j","184","325571","anxiety","disorders","disorders or humanizing","treatment or stigmatizing","disorders or humanizing","true",""
"iat","","873","j","186","326698","body dysmorphia","disorders","disorders or humanizing","treatment or stigmatizing","disorders or humanizing","true",""
"iat","","1104","f","188","328058","SHARE counselors","treatment","treatment or stigmatizing","treatment or stigmatizing","disorders or humanizing","true",""
"iat","","3229","f","190","331541","insane","stigmatizing","treatment or stigmatizing","treatment or stigmatizing","disorders or humanizing","true",""
"iat","","1734","j","192","333528","realistic","humanizing","disorders or humanizing","treatment or stigmatizing","disorders or humanizing","true",""
"iat","","2094","f","194","335876","medication","treatment","treatment or stigmatizing","treatment or stigmatizing","disorders or humanizing","true",""
"iat","","944","j","196","337073","personality disorder","disorders","disorders or humanizing","treatment or stigmatizing","disorders or humanizing","true",""
"iat","","756","j","198","338083","depression","disorders","disorders or humanizing","treatment or stigmatizing","disorders or humanizing","true",""
"iat","","1260","f","200","339597","unpredictable","stigmatizing","treatment or stigmatizing","treatment or stigmatizing","disorders or humanizing","true",""
"iat","","1841","j","202","341692","reasonable","humanizing","disorders or humanizing","treatment or stigmatizing","disorders or humanizing","true",""
"iat","","1306","j","204","343253","bipolar disorder","disorders","disorders or humanizing","treatment or stigmatizing","disorders or humanizing","true",""
"iat","","1173","f","206","344682","capable","humanizing","disorders or humanizing","treatment or stigmatizing","disorders or humanizing","false",""
"iat","","1582","j","208","346520","weak","stigmatizing","treatment or stigmatizing","treatment or stigmatizing","disorders or humanizing","false",""
"iat","","1250","f","210","348024","resident deans","treatment","treatment or stigmatizing","treatment or stigmatizing","disorders or humanizing","true",""
"iat","","1969","f","212","350248","crazy","stigmatizing","treatment or stigmatizing","treatment or stigmatizing","disorders or humanizing","true",""
"iat","","818","j","214","351321","eating disorder","disorders","disorders or humanizing","treatment or stigmatizing","disorders or humanizing","true",""
"iat","","1466","j","216","353041","fragile","stigmatizing","treatment or stigmatizing","treatment or stigmatizing","disorders or humanizing","false",""
"iat","","1002","f","218","354298","counseling","treatment","treatment or stigmatizing","treatment or stigmatizing","disorders or humanizing","true",""
"iat","","1992","j","220","356545","rational","humanizing","disorders or humanizing","treatment or stigmatizing","disorders or humanizing","true",""
"iat","","1587","f","223","365916","dangerous","stigmatizing","disorders or stigmatizing","disorders or stigmatizing","treatment or humanizing","true",""
"iat","","1364","f","225","367535","eating disorder","disorders","disorders or stigmatizing","disorders or stigmatizing","treatment or humanizing","true",""
"iat","","2316","j","227","370105","medication","treatment","treatment or humanizing","disorders or stigmatizing","treatment or humanizing","true",""
"iat","","1768","j","229","372128","fragile","stigmatizing","disorders or stigmatizing","disorders or stigmatizing","treatment or humanizing","false",""
"iat","","1743","f","231","374124","challenging","humanizing","treatment or humanizing","disorders or stigmatizing","treatment or humanizing","false",""
"iat","","1168","f","233","375546","psychiatry","treatment","treatment or humanizing","disorders or stigmatizing","treatment or humanizing","false",""
"iat","","1182","j","235","376983","support group","treatment","treatment or humanizing","disorders or stigmatizing","treatment or humanizing","true",""
"iat","","2702","j","237","379939","human","humanizing","treatment or humanizing","disorders or stigmatizing","treatment or humanizing","true",""
"iat","","1085","f","239","381279","post traumatic stress disorder","disorders","disorders or stigmatizing","disorders or stigmatizing","treatment or humanizing","true",""
"iat","","2015","j","241","383548","reasonable","humanizing","treatment or humanizing","disorders or stigmatizing","treatment or humanizing","true",""
"iat","","1057","j","243","384858","tutors","treatment","treatment or humanizing","disorders or stigmatizing","treatment or humanizing","true",""
"iat","","1027","j","245","386139","weird","stigmatizing","disorders or stigmatizing","disorders or stigmatizing","treatment or humanizing","false",""
"iat","","889","f","247","387282","bipolar disorder","disorders","disorders or stigmatizing","disorders or stigmatizing","treatment or humanizing","true",""
"iat","","1214","f","249","388750","anxiety","disorders","disorders or stigmatizing","disorders or stigmatizing","treatment or humanizing","true",""
"iat","","745","f","251","389749","schizophrenia","disorders","disorders or stigmatizing","disorders or stigmatizing","treatment or humanizing","true",""
"iat","","1017","j","253","391020","counseling","treatment","treatment or humanizing","disorders or stigmatizing","treatment or humanizing","true",""
"iat","","1181","f","255","392456","unpredictable","stigmatizing","disorders or stigmatizing","disorders or stigmatizing","treatment or humanizing","true",""
"iat","","1394","f","257","394105","substance abuse disorder","disorders","disorders or stigmatizing","disorders or stigmatizing","treatment or humanizing","true",""
"iat","","1400","f","259","395758","depression","disorders","disorders or stigmatizing","disorders or stigmatizing","treatment or humanizing","true",""
"iat","","1001","j","261","397015","therapy","treatment","treatment or humanizing","disorders or stigmatizing","treatment or humanizing","true",""
"iat","","1198","f","263","398468","insane","stigmatizing","disorders or stigmatizing","disorders or stigmatizing","treatment or humanizing","true",""
"iat","","1405","j","265","400128","weak","stigmatizing","disorders or stigmatizing","disorders or stigmatizing","treatment or humanizing","false",""
"iat","","1039","f","267","401420","useless","stigmatizing","disorders or stigmatizing","disorders or stigmatizing","treatment or humanizing","true",""
"iat","","1326","f","269","403001","personality disorder","disorders","disorders or stigmatizing","disorders or stigmatizing","treatment or humanizing","true",""
"iat","","930","j","271","404185","sane","humanizing","treatment or humanizing","disorders or stigmatizing","treatment or humanizing","true",""
"iat","","1489","j","273","405927","capable","humanizing","treatment or humanizing","disorders or stigmatizing","treatment or humanizing","true",""
"iat","","1088","j","275","407270","peer counseling","treatment","treatment or humanizing","disorders or stigmatizing","treatment or humanizing","true",""
"iat","","696","j","277","408220","CAMHS","treatment","treatment or humanizing","disorders or stigmatizing","treatment or humanizing","true",""
"iat","","1050","f","279","409525","obsessive compulsive disorder","disorders","disorders or stigmatizing","disorders or stigmatizing","treatment or humanizing","true",""
"iat","","1041","j","281","410821","realistic","humanizing","treatment or humanizing","disorders or stigmatizing","treatment or humanizing","true",""
"iat","","841","f","283","411917","crazy","stigmatizing","disorders or stigmatizing","disorders or stigmatizing","treatment or humanizing","true",""
"iat","","851","j","285","413021","normal","humanizing","treatment or humanizing","disorders or stigmatizing","treatment or humanizing","true",""
"iat","","940","j","287","414214","SHARE counselors","treatment","treatment or humanizing","disorders or stigmatizing","treatment or humanizing","true",""
"iat","","1426","f","289","415895","difficult","humanizing","treatment or humanizing","disorders or stigmatizing","treatment or humanizing","false",""
"iat","","1018","f","291","417168","psychotic","stigmatizing","disorders or stigmatizing","disorders or stigmatizing","treatment or humanizing","true",""
"iat","","1532","j","293","418955","feeling","humanizing","treatment or humanizing","disorders or stigmatizing","treatment or humanizing","true",""
"questionnaire","","50621","{""Q4"":2,""Q3"":2,""Q6"":2,""Q5"":2,""Q8"":2,""Q1"":2,""Q9"":3,""Q0"":2,""Q2"":1,""Q7"":2}","295","469836","","","","","","","[4,3,6,5,8,1,9,0,2,7]"
